Nlx-EIB-36 electrode tested on 4/26/2018 at 7:32:50 PM
Site	1004 Hz|Mag (MOhm)	1004 Hz|Phase(°)	
1	0.230	-76.7	
2	0.261	-73.1	
3	0.250	-77.5	
4	0.226	-78.4	
13	0.252	-73.9	
14	0.269	-74.9	
15	0.245	-77.8	
16	0.264	-80.3	
17	0.259	-74.6	
19	0.263	-76.0	
20	0.248	-76.7	
21	0.421	-67.6	
22	0.229	-74.5	
23	0.245	-80.2	
24	0.266	-73.3	
25	0.251	-78.8	
26	0.252	-77.1	
27	0.212	-72.1	
28	0.248	-71.4	
29	0.235	-71.8	
30	0.305	-76.9	
31	0.247	-75.4	
32	0.224	-75.0	
Average	0.257±0.041	-75.4±3.0	